# E (eV)  ldosup(E)  ldosdw(E) pdosup(E)  pdosdw(E) 
   8.000  0.000E+00  0.000E+00  0.000E+00  0.000E+00
   8.100  0.000E+00  0.000E+00  0.000E+00  0.000E+00
   8.200  0.000E+00  0.000E+00  0.000E+00  0.000E+00
   8.300  0.000E+00  0.000E+00  0.000E+00  0.000E+00
   8.400  0.000E+00  0.000E+00  0.000E+00  0.000E+00
   8.500  0.000E+00  0.000E+00  0.000E+00  0.000E+00
   8.600  0.000E+00  0.000E+00  0.000E+00  0.000E+00
   8.700  0.000E+00  0.000E+00  0.000E+00  0.000E+00
   8.800  0.000E+00  0.000E+00  0.000E+00  0.000E+00
   8.900  0.000E+00  0.000E+00  0.000E+00  0.000E+00
   9.000  0.000E+00  0.000E+00  0.000E+00  0.000E+00
   9.100  0.000E+00  0.000E+00  0.000E+00  0.000E+00
   9.200  0.000E+00  0.000E+00  0.000E+00  0.000E+00
   9.300  0.000E+00  0.000E+00  0.000E+00  0.000E+00
   9.400  0.000E+00  0.000E+00  0.000E+00  0.000E+00
   9.500  0.000E+00  0.000E+00  0.000E+00  0.000E+00
   9.600  0.000E+00  0.000E+00  0.000E+00  0.000E+00
   9.700  0.783E-03  0.594E-03  0.783E-03  0.594E-03
   9.800  0.105E-02  0.918E-03  0.105E-02  0.918E-03
   9.900  0.124E-02  0.113E-02  0.124E-02  0.113E-02
  10.000  0.154E-02  0.139E-02  0.154E-02  0.139E-02
  10.100  0.168E-02  0.162E-02  0.168E-02  0.162E-02
  10.200  0.160E-02  0.170E-02  0.160E-02  0.170E-02
  10.300  0.168E-02  0.162E-02  0.168E-02  0.162E-02
  10.400  0.176E-02  0.169E-02  0.176E-02  0.169E-02
  10.500  0.183E-02  0.177E-02  0.183E-02  0.177E-02
  10.600  0.190E-02  0.183E-02  0.190E-02  0.183E-02
  10.700  0.191E-02  0.189E-02  0.191E-02  0.189E-02
  10.800  0.194E-02  0.189E-02  0.194E-02  0.189E-02
  10.900  0.194E-02  0.190E-02  0.194E-02  0.190E-02
  11.000  0.190E-02  0.188E-02  0.190E-02  0.188E-02
  11.100  0.186E-02  0.182E-02  0.186E-02  0.182E-02
  11.200  0.184E-02  0.178E-02  0.184E-02  0.178E-02
  11.300  0.183E-02  0.176E-02  0.183E-02  0.176E-02
  11.400  0.182E-02  0.174E-02  0.182E-02  0.174E-02
  11.500  0.179E-02  0.171E-02  0.179E-02  0.171E-02
  11.600  0.176E-02  0.169E-02  0.176E-02  0.169E-02
  11.700  0.169E-02  0.165E-02  0.169E-02  0.165E-02
  11.800  0.163E-02  0.158E-02  0.163E-02  0.158E-02
  11.900  0.160E-02  0.151E-02  0.160E-02  0.151E-02
  12.000  0.155E-02  0.145E-02  0.155E-02  0.145E-02
  12.100  0.149E-02  0.139E-02  0.149E-02  0.139E-02
  12.200  0.142E-02  0.133E-02  0.142E-02  0.133E-02
  12.300  0.136E-02  0.127E-02  0.136E-02  0.127E-02
  12.400  0.129E-02  0.120E-02  0.129E-02  0.120E-02
  12.500  0.121E-02  0.114E-02  0.121E-02  0.114E-02
  12.600  0.113E-02  0.107E-02  0.113E-02  0.107E-02
  12.700  0.104E-02  0.100E-02  0.104E-02  0.100E-02
  12.800  0.104E-02  0.934E-03  0.104E-02  0.934E-03
  12.900  0.106E-02  0.864E-03  0.106E-02  0.864E-03
  13.000  0.107E-02  0.793E-03  0.107E-02  0.793E-03
  13.100  0.880E-03  0.727E-03  0.880E-03  0.727E-03
  13.200  0.682E-03  0.662E-03  0.682E-03  0.662E-03
  13.300  0.533E-03  0.599E-03  0.533E-03  0.599E-03
  13.400  0.408E-03  0.545E-03  0.408E-03  0.545E-03
  13.500  0.305E-03  0.492E-03  0.305E-03  0.492E-03
  13.600  0.253E-03  0.438E-03  0.253E-03  0.438E-03
  13.700  0.148E-03  0.385E-03  0.148E-03  0.385E-03
  13.800  0.988E-04  0.333E-03  0.988E-04  0.333E-03
  13.900  0.757E-04  0.286E-03  0.757E-04  0.286E-03
  14.000  0.801E-04  0.241E-03  0.801E-04  0.241E-03
  14.100  0.236E-04  0.199E-03  0.236E-04  0.199E-03
  14.200  0.173E-04  0.161E-03  0.173E-04  0.161E-03
  14.300  0.154E-04  0.159E-03  0.154E-04  0.159E-03
  14.400  0.353E-04  0.156E-03  0.353E-04  0.156E-03
  14.500  0.540E-04  0.127E-03  0.540E-04  0.127E-03
  14.600  0.260E-04  0.102E-03  0.260E-04  0.102E-03
  14.700  0.216E-04  0.851E-04  0.216E-04  0.851E-04
  14.800  0.263E-04  0.793E-04  0.263E-04  0.793E-04
  14.900  0.651E-04  0.811E-04  0.651E-04  0.811E-04
  15.000  0.129E-03  0.873E-04  0.129E-03  0.873E-04
  15.100  0.232E-03  0.101E-03  0.232E-03  0.101E-03
  15.200  0.270E-03  0.203E-03  0.270E-03  0.203E-03
  15.300  0.174E-03  0.243E-03  0.174E-03  0.243E-03
  15.400  0.115E-03  0.203E-03  0.115E-03  0.203E-03
  15.500  0.909E-04  0.936E-04  0.909E-04  0.936E-04
  15.600  0.735E-04  0.489E-04  0.735E-04  0.489E-04
  15.700  0.601E-04  0.253E-04  0.601E-04  0.253E-04
  15.800  0.522E-04  0.134E-04  0.522E-04  0.134E-04
  15.900  0.487E-04  0.136E-04  0.487E-04  0.136E-04
  16.000  0.495E-04  0.146E-04  0.495E-04  0.146E-04
  16.100  0.502E-04  0.269E-04  0.502E-04  0.269E-04
  16.200  0.691E-04  0.489E-04  0.691E-04  0.489E-04
  16.300  0.107E-03  0.952E-04  0.107E-03  0.952E-04
  16.400  0.145E-03  0.138E-03  0.145E-03  0.138E-03
  16.500  0.151E-03  0.228E-03  0.151E-03  0.228E-03
  16.600  0.121E-03  0.305E-03  0.121E-03  0.305E-03
  16.700  0.674E-04  0.322E-03  0.674E-04  0.322E-03
  16.800  0.111E-03  0.360E-03  0.111E-03  0.360E-03
  16.900  0.980E-04  0.436E-03  0.980E-04  0.436E-03
  17.000  0.931E-04  0.569E-03  0.931E-04  0.569E-03
  17.100  0.819E-04  0.714E-03  0.819E-04  0.714E-03
  17.200  0.745E-04  0.611E-03  0.745E-04  0.611E-03
  17.300  0.713E-04  0.387E-03  0.713E-04  0.387E-03
  17.400  0.733E-04  0.282E-03  0.733E-04  0.282E-03
  17.500  0.730E-04  0.188E-03  0.730E-04  0.188E-03
  17.600  0.742E-04  0.143E-03  0.742E-04  0.143E-03
  17.700  0.839E-04  0.105E-03  0.839E-04  0.105E-03
  17.800  0.108E-03  0.733E-04  0.108E-03  0.733E-04
  17.900  0.137E-03  0.471E-04  0.137E-03  0.471E-04
  18.000  0.170E-03  0.834E-05  0.170E-03  0.834E-05
  18.100  0.204E-03  0.791E-05  0.204E-03  0.791E-05
  18.200  0.239E-03  0.105E-04  0.239E-03  0.105E-04
  18.300  0.302E-03  0.119E-04  0.302E-03  0.119E-04
  18.400  0.337E-03  0.143E-04  0.337E-03  0.143E-04
  18.500  0.372E-03  0.198E-04  0.372E-03  0.198E-04
  18.600  0.403E-03  0.308E-04  0.403E-03  0.308E-04
  18.700  0.428E-03  0.399E-04  0.428E-03  0.399E-04
  18.800  0.446E-03  0.511E-04  0.446E-03  0.511E-04
  18.900  0.461E-03  0.575E-04  0.461E-03  0.575E-04
  19.000  0.484E-03  0.604E-04  0.484E-03  0.604E-04
  19.100  0.505E-03  0.653E-04  0.505E-03  0.653E-04
  19.200  0.527E-03  0.724E-04  0.527E-03  0.724E-04
  19.300  0.552E-03  0.877E-04  0.552E-03  0.877E-04
  19.400  0.577E-03  0.948E-04  0.577E-03  0.948E-04
  19.500  0.599E-03  0.519E-04  0.599E-03  0.519E-04
  19.600  0.619E-03  0.302E-04  0.619E-03  0.302E-04
  19.700  0.652E-03  0.409E-04  0.652E-03  0.409E-04
  19.800  0.656E-03  0.702E-04  0.656E-03  0.702E-04
  19.900  0.676E-03  0.124E-03  0.676E-03  0.124E-03
  20.000  0.699E-03  0.144E-03  0.699E-03  0.144E-03
  20.100  0.724E-03  0.121E-03  0.724E-03  0.121E-03
  20.200  0.739E-03  0.131E-03  0.739E-03  0.131E-03
  20.300  0.748E-03  0.175E-03  0.748E-03  0.175E-03
  20.400  0.758E-03  0.231E-03  0.758E-03  0.231E-03
  20.500  0.758E-03  0.284E-03  0.758E-03  0.284E-03
  20.600  0.751E-03  0.346E-03  0.751E-03  0.346E-03
  20.700  0.746E-03  0.411E-03  0.746E-03  0.411E-03
  20.800  0.737E-03  0.467E-03  0.737E-03  0.467E-03
  20.900  0.729E-03  0.517E-03  0.729E-03  0.517E-03
  21.000  0.723E-03  0.559E-03  0.723E-03  0.559E-03
  21.100  0.715E-03  0.592E-03  0.715E-03  0.592E-03
  21.200  0.724E-03  0.625E-03  0.724E-03  0.625E-03
  21.300  0.700E-03  0.656E-03  0.700E-03  0.656E-03
  21.400  0.691E-03  0.684E-03  0.691E-03  0.684E-03
  21.500  0.681E-03  0.708E-03  0.681E-03  0.708E-03
  21.600  0.670E-03  0.732E-03  0.670E-03  0.732E-03
  21.700  0.658E-03  0.762E-03  0.658E-03  0.762E-03
  21.800  0.645E-03  0.789E-03  0.645E-03  0.789E-03
  21.900  0.632E-03  0.811E-03  0.632E-03  0.811E-03
  22.000  0.617E-03  0.830E-03  0.617E-03  0.830E-03
  22.100  0.614E-03  0.832E-03  0.614E-03  0.832E-03
  22.200  0.599E-03  0.832E-03  0.599E-03  0.832E-03
  22.300  0.588E-03  0.815E-03  0.588E-03  0.815E-03
  22.400  0.580E-03  0.799E-03  0.580E-03  0.799E-03
  22.500  0.565E-03  0.815E-03  0.565E-03  0.815E-03
  22.600  0.540E-03  0.773E-03  0.540E-03  0.773E-03
  22.700  0.518E-03  0.764E-03  0.518E-03  0.764E-03
  22.800  0.527E-03  0.752E-03  0.527E-03  0.752E-03
  22.900  0.495E-03  0.739E-03  0.495E-03  0.739E-03
  23.000  0.433E-03  0.726E-03  0.433E-03  0.726E-03
  23.100  0.412E-03  0.712E-03  0.412E-03  0.712E-03
  23.200  0.392E-03  0.697E-03  0.392E-03  0.697E-03
  23.300  0.372E-03  0.680E-03  0.372E-03  0.680E-03
  23.400  0.352E-03  0.662E-03  0.352E-03  0.662E-03
  23.500  0.331E-03  0.654E-03  0.331E-03  0.654E-03
  23.600  0.307E-03  0.634E-03  0.307E-03  0.634E-03
  23.700  0.283E-03  0.615E-03  0.283E-03  0.615E-03
  23.800  0.261E-03  0.661E-03  0.261E-03  0.661E-03
  23.900  0.240E-03  0.611E-03  0.240E-03  0.611E-03
  24.000  0.222E-03  0.547E-03  0.222E-03  0.547E-03
  24.100  0.205E-03  0.519E-03  0.205E-03  0.519E-03
  24.200  0.189E-03  0.503E-03  0.189E-03  0.503E-03
  24.300  0.175E-03  0.432E-03  0.175E-03  0.432E-03
  24.400  0.162E-03  0.408E-03  0.162E-03  0.408E-03
  24.500  0.151E-03  0.383E-03  0.151E-03  0.383E-03
  24.600  0.244E-03  0.358E-03  0.244E-03  0.358E-03
  24.700  0.195E-03  0.331E-03  0.195E-03  0.331E-03
  24.800  0.343E-03  0.301E-03  0.343E-03  0.301E-03
  24.900  0.681E-03  0.274E-03  0.681E-03  0.274E-03
  25.000  0.120E-02  0.249E-03  0.120E-02  0.249E-03
  25.100  0.166E-02  0.226E-03  0.166E-02  0.226E-03
